Folder: Soft-Guided-Glider/Reports and Data/Tensile testing/COMP PLA.is_qtest_Exports

Note: README.md
# Soft-Guided-Glider
Roco504 project. Making a compliant actively controlled glider.

File: COMP PLA_1.csv
Time,Displacement,Force
(s),(mm),(kN)
"0.0000","0.0000","-0.0001"
"0.8000","0.0668","0.0072"
"1.6000","0.1335","0.0140"
"2.4000","0.2001","0.0203"
"3.2000","0.2672","0.0260"
"4.0000","0.3335","0.0311"
"4.8000","0.4004","0.0359"
"5.6000","0.4667","0.0402"
"6.4000","0.5337","0.0442"
"7.2000","0.6001","0.0478"
"8.0000","0.6668","0.0512"
"8.8000","0.7336","0.0543"
"9.6000","0.8004","0.0571"
"10.4000","0.8668","0.0597"
"11.2000","0.9336","0.0621"
"12.0000","1.0001","0.0643"
"12.8000","1.0668","0.0664"
"13.6000","1.1336","0.0684"
"14.4000","1.2003","0.0703"
"15.2000","1.2669","0.0720"
"16.0000","1.3339","0.0736"
"16.8000","1.4001","0.0751"
"17.6000","1.4669","0.0765"
"18.4000","1.5335","0.0778"
"19.2000","1.6003","0.0791"
"20.0000","1.6669","0.0802"
"20.8000","1.7335","0.0813"
"21.6000","1.8001","0.0823"
"22.4000","1.8671","0.0832"
"23.2000","1.9336","0.0841"
"24.0000","2.0004","0.0849"
"24.8000","2.0668","0.0857"
"25.6000","2.1336","0.0864"
"26.4000","2.2003","0.0870"
"27.2000","2.2669","0.0876"
"28.0000","2.3336","0.0882"
"28.8000","2.4004","0.0886"
"29.6000","2.4668","0.0891"
"30.4000","2.5336","0.0895"
"31.2000","2.6000","0.0899"
"32.0000","2.6671","0.0902"
"32.8000","2.7335","0.0905"
"33.6000","2.8003","0.0907"
"34.4000","2.8668","0.0910"
"35.2000","2.9337","0.0911"
"36.0000","3.0001","0.0913"
"36.8000","3.0671","0.0915"
"37.6000","3.1333","0.0915"
"38.4000","3.2003","0.0916"
"39.2000","3.2669","0.0917"
"40.0000","3.3335","0.0918"
"40.8000","3.4001","0.0918"
"41.6000","3.4672","0.0918"
"42.4000","3.5335","0.0918"
"43.2000","3.6003","0.0918"
"44.0000","3.6667","0.0917"
"44.8000","3.7337","0.0916"
"45.6000","3.8003","0.0915"
"46.4000","3.8668","0.0914"
"47.2000","3.9335","0.0913"
"48.0000","4.0005","0.0912"
"48.8000","4.0668","0.0910"
"49.6000","4.1336","0.0909"
"50.4000","4.2000","0.0907"
"51.2000","4.2669","0.0906"
"52.0000","4.3336","0.0904"
"52.8000","4.4003","0.0902"
"53.6000","4.4668","0.0900"
"54.4000","4.5337","0.0898"
"55.2000","4.6001","0.0895"
"56.0000","4.6669","0.0893"
"56.8000","4.7333","0.0891"
"57.6000","4.8004","0.0888"
"58.4000","4.8669","0.0885"
"59.2000","4.9335","0.0883"
"60.0000","5.0001","0.0880"
"60.8000","5.0671","0.0877"
"61.6000","5.1335","0.0874"
"62.4000","5.2003","0.0871"
"63.2000","5.2668","0.0869"
"64.0000","5.3337","0.0866"
"64.8000","5.4003","0.0862"
"65.6000","5.4669","0.0859"
"66.4000","5.5335","0.0856"
"67.2000","5.6004","0.0853"
"68.0000","5.6668","0.0850"
"68.8000","5.7336","0.0846"
"69.6000","5.8001","0.0843"
"70.4000","5.8671","0.0840"
"71.2000","5.9335","0.0836"
"72.0000","6.0001","0.0833"
"72.8000","6.0669","0.0830"
"73.6000","6.1339","0.0827"
"74.4000","6.2001","0.0824"
"75.2000","6.2669","0.0820"
"76.0000","6.3333","0.0817"
"76.8000","6.4004","0.0814"
"77.6000","6.4669","0.0811"
"78.4000","6.5335","0.0807"
"79.2000","6.6001","0.0804"
"80.0000","6.6671","0.0801"
"80.8000","6.7333","0.0798"
"81.6000","6.8003","0.0795"
"82.4000","6.8668","0.0792"
"83.2000","6.9336","0.0789"
"84.0000","7.0003","0.0786"
"84.8000","7.0668","0.0783"
"85.6000","7.1335","0.0781"
"86.4000","7.2005","0.0778"
"87.2000","7.2669","0.0775"
"88.0000","7.3336","0.0772"
"88.8000","7.4001","0.0769"
"89.6000","7.4671","0.0767"
"90.4000","7.5336","0.0764"
"91.2000","7.6003","0.0761"
"92.0000","7.6668","0.0758"
"92.8000","7.7339","0.0755"
"93.6000","7.8000","0.0753"
"94.4000","7.8669","0.0751"
"95.2000","7.9333","0.0748"
"96.0000","8.0004","0.0745"
"96.8000","8.0669","0.0742"
"97.6000","8.1335","0.0740"
"98.4000","8.2001","0.0738"
"99.2000","8.2672","0.0735"
"100.0000","8.3335","0.0732"
"100.8000","8.4003","0.0730"
"101.6000","8.4668","0.0728"
"102.4000","8.5337","0.0725"
"103.2000","8.6003","0.0723"
"104.0000","8.6669","0.0721"
"104.8000","8.7335","0.0718"
"105.6000","8.8004","0.0716"
"106.4000","8.8668","0.0714"
"107.2000","8.9336","0.0711"
"108.0000","9.0001","0.0709"
"108.8000","9.0671","0.0707"
"109.6000","9.1335","0.0704"
"110.4000","9.2003","0.0702"
"111.2000","9.2669","0.0700"
"112.0000","9.3337","0.0698"
"112.8000","9.4001","0.0695"
"113.6000","9.4671","0.0693"
"114.4000","9.5335","0.0690"
"115.2000","9.6004","0.0688"
"116.0000","9.6668","0.0686"
"116.8000","9.7336","0.0683"
"117.6000","9.8003","0.0681"
"118.4000","9.8671","0.0679"
"119.2000","9.9335","0.0677"
"120.0000","10.0004","0.0675"
"120.8000","10.0668","0.0673"
"121.6000","10.1336","0.0671"
"122.4000","10.2001","0.0668"
"123.2000","10.2669","0.0666"
"124.0000","10.3335","0.0664"
"124.8000","10.4004","0.0662"
"125.6000","10.4668","0.0660"
"126.4000","10.5336","0.0658"
"127.2000","10.6000","0.0656"
"128.0000","10.6671","0.0654"
"128.8000","10.7335","0.0652"
"129.6000","10.8003","0.0650"
"130.4000","10.8668","0.0648"
"131.2000","10.9337","0.0646"
"132.0000","11.0001","0.0644"
"132.8000","11.0669","0.0642"
"133.6000","11.1335","0.0639"
"134.4000","11.2004","0.0637"
"135.2000","11.2669","0.0635"
"136.0000","11.3336","0.0633"
"136.8000","11.4001","0.0631"
"137.6000","11.4672","0.0630"
"138.4000","11.5335","0.0627"
"139.2000","11.6003","0.0625"
"140.0000","11.6668","0.0623"
"140.8000","11.7337","0.0621"
"141.6000","11.8001","0.0619"
"142.4000","11.8668","0.0617"
"143.2000","11.9335","0.0615"
"144.0000","12.0005","0.0614"
"144.8000","12.0668","0.0612"
"145.6000","12.1336","0.0610"
"146.4000","12.2000","0.0608"
"147.2000","12.2671","0.0606"
"148.0000","12.3336","0.0604"
"148.8000","12.4001","0.0602"
"149.6000","12.4668","0.0600"
"150.4000","12.5339","0.0598"
"151.2000","12.6001","0.0596"
"152.0000","12.6669","0.0594"
"152.8000","12.7335","0.0592"
"153.6000","12.8004","0.0590"
"154.4000","12.8668","0.0589"
"155.2000","12.9336","0.0587"
"156.0000","13.0003","0.0585"
"156.8000","13.0672","0.0583"
"157.6000","13.1335","0.0581"
"158.4000","13.2003","0.0580"
"159.2000","13.2667","0.0578"
"160.0000","13.3336","0.0576"
"160.8000","13.4003","0.0574"
"161.6000","13.4669","0.0572"
"162.4000","13.5336","0.0571"
"163.2000","13.6004","0.0569"
"164.0000","13.6668","0.0567"
"164.8000","13.7337","0.0566"
"165.6000","13.8001","0.0564"
"166.4000","13.8669","0.0562"
"167.2000","13.9336","0.0560"
"168.0000","14.0001","0.0559"
"168.8000","14.0668","0.0557"
"169.6000","14.1337","0.0555"
"170.4000","14.2001","0.0554"
"171.2000","14.2669","0.0552"
"172.0000","14.3335","0.0551"
"172.8000","14.4004","0.0550"
"173.6000","14.4669","0.0547"
"174.4000","14.5336","0.0546"
"175.2000","14.6001","0.0545"
"176.0000","14.6671","0.0543"
"176.8000","14.7335","0.0541"
"177.6000","14.8003","0.0540"
"178.4000","14.8667","0.0538"
"179.2000","14.9337","0.0537"
"180.0000","15.0003","0.0535"
"180.8000","15.0669","0.0533"
"181.6000","15.1336","0.0532"
"182.4000","15.2004","0.0531"
"183.2000","15.2668","0.0529"
"184.0000","15.3336","0.0527"
"184.8000","15.4000","0.0526"
"185.6000","15.4671","0.0525"
"186.4000","15.5335","0.0523"
"187.2000","15.6004","0.0521"
"188.0000","15.6668","0.0520"
"188.8000","15.7337","0.0519"
"189.6000","15.8001","0.0517"
"190.4000","15.8669","0.0516"
"191.2000","15.9333","0.0514"
"192.0000","16.0004","0.0512"
"192.8000","16.0671","0.0511"
"193.6000","16.1335","0.0510"
"194.4000","16.2001","0.0508"
"195.2000","16.2671","0.0507"
"196.0000","16.3335","0.0505"
"196.8000","16.4003","0.0504"
"197.6000","16.4668","0.0503"
"198.4000","16.5337","0.0501"
"199.2000","16.6003","0.0500"
"200.0000","16.6669","0.0499"
"200.8000","16.7335","0.0497"
"201.6000","16.8005","0.0496"
"202.4000","16.8668","0.0494"
"203.2000","16.9336","0.0493"
"204.0000","17.0001","0.0492"
"204.8000","17.0671","0.0490"
"205.6000","17.1336","0.0489"
"206.4000","17.2001","0.0488"
"207.2000","17.2668","0.0486"
"208.0000","17.3339","0.0485"
"208.8000","17.4001","0.0484"
"209.6000","17.4669","0.0482"
"210.4000","17.5335","0.0481"
"211.2000","17.6005","0.0480"
"212.0000","17.6668","0.0478"
"212.8000","17.7336","0.0477"
"213.6000","17.8001","0.0476"
"214.4000","17.8671","0.0475"
"215.2000","17.9335","0.0473"
"216.0000","18.0003","0.0472"
"216.8000","18.0667","0.0471"
"217.6000","18.1337","0.0470"
"218.4000","18.2003","0.0469"
"219.2000","18.2668","0.0468"
"220.0000","18.3336","0.0467"
"220.8000","18.4004","0.0465"
"221.6000","18.4668","0.0464"
"222.4000","18.5336","0.0463"
"223.2000","18.6000","0.0462"
"224.0000","18.6671","0.0461"
"224.8000","18.7336","0.0460"
"225.6000","18.8003","0.0459"
"226.4000","18.8668","0.0457"
"227.2000","18.9339","0.0456"
"228.0000","19.0001","0.0455"
"228.8000","19.0669","0.0454"
"229.6000","19.1335","0.0453"
"230.4000","19.2004","0.0452"
"231.2000","19.2669","0.0451"
"232.0000","19.3336","0.0450"
"232.8000","19.4001","0.0449"
"233.6000","19.4671","0.0448"
"234.4000","19.5335","0.0447"
"235.2000","19.6003","0.0445"
"236.0000","19.6668","0.0444"
"236.8000","19.7337","0.0444"
"236.9480","19.7457","0.0443"