Folder: Soft-Guided-Glider/Reports and Data/Tensile testing/TENSILE TEST.is_qtest_Exports (part 2)

File: TENSILE TEST_3.csv
Time,Displacement,Force
(s),(mm),(kN)
"0.0000","0.0000","0.0000"
"0.5000","0.1660","0.0068"
"1.0000","0.3336","0.0139"
"1.5000","0.5008","0.0223"
"2.0000","0.6673","0.0301"
"2.5000","0.8337","0.0373"
"3.0000","1.0004","0.0438"
"3.5000","1.1676","0.0499"
"4.0000","1.3340","0.0553"
"4.5000","1.5004","0.0602"
"5.0000","1.6671","0.0647"
"5.5000","1.8341","0.0687"
"6.0000","2.0008","0.0723"
"6.5000","2.1671","0.0755"
"7.0000","2.3337","0.0783"
"7.5000","2.5008","0.0809"
"8.0000","2.6673","0.0832"
"8.5000","2.8336","0.0851"
"9.0000","3.0004","0.0869"
"9.5000","3.1675","0.0885"
"10.0000","3.3340","0.0899"
"10.5000","3.5001","0.0911"
"11.0000","3.6671","0.0922"
"11.5000","3.8341","0.0932"
"12.0000","4.0008","0.0942"
"12.5000","4.1668","0.0950"
"13.0000","4.3339","0.0957"
"13.5000","4.5008","0.0965"
"14.0000","4.6675","0.0971"
"14.5000","4.8337","0.0978"
"15.0000","5.0004","0.0984"
"15.5000","5.1676","0.0990"
"16.0000","5.3341","0.0996"
"16.5000","5.5004","0.1001"
"17.0000","5.6671","0.1006"
"17.5000","5.8341","0.1012"
"18.0000","6.0008","0.1016"
"18.5000","6.1672","0.1021"
"19.0000","6.3337","0.1025"
"19.5000","6.5009","0.1030"
"20.0000","6.6675","0.1034"
"20.5000","6.8339","0.1038"
"21.0000","7.0004","0.1041"
"21.5000","7.1675","0.1046"
"22.0000","7.3341","0.1050"
"22.5000","7.5004","0.1053"
"23.0000","7.6671","0.1056"
"23.5000","7.8341","0.1060"
"24.0000","8.0007","0.1063"
"24.5000","8.1671","0.1065"
"25.0000","8.3336","0.1066"
"25.5000","8.5009","0.1068"
"26.0000","8.6673","0.1070"
"26.5000","8.8337","0.1073"
"27.0000","9.0004","0.1073"
"27.5000","9.1675","0.1075"
"28.0000","9.3340","0.1077"
"28.5000","9.5004","0.1080"
"29.0000","9.6672","0.1083"
"29.5000","9.8339","0.1086"
"30.0000","10.0008","0.1089"
"30.5000","10.1671","0.1091"
"31.0000","10.3336","0.1094"
"31.5000","10.5009","0.1097"
"32.0000","10.6673","0.1100"
"32.5000","10.8336","0.1101"
"33.0000","11.0004","0.1104"
"33.5000","11.1676","0.1107"
"34.0000","11.3340","0.1110"
"34.5000","11.5004","0.1111"
"35.0000","11.6669","0.1113"
"35.5000","11.8343","0.1116"
"36.0000","12.0007","0.1118"
"36.5000","12.1671","0.1120"
"37.0000","12.3337","0.1122"
"37.5000","12.5008","0.1125"
"38.0000","12.6675","0.1128"
"38.5000","12.8337","0.1130"
"39.0000","13.0003","0.1133"
"39.5000","13.1676","0.1135"
"40.0000","13.3341","0.1138"
"40.5000","13.5003","0.1140"
"41.0000","13.6671","0.1142"
"41.5000","13.8341","0.1144"
"42.0000","14.0007","0.1146"
"42.5000","14.1672","0.1148"
"43.0000","14.3336","0.1151"
"43.5000","14.5009","0.1154"
"44.0000","14.6673","0.1156"
"44.5000","14.8337","0.1158"
"45.0000","15.0004","0.1159"
"45.5000","15.1675","0.1161"
"46.0000","15.3343","0.1164"
"46.5000","15.5001","0.1166"
"47.0000","15.6671","0.1168"
"47.5000","15.8341","0.1171"
"48.0000","16.0007","0.1173"
"48.5000","16.1669","0.1175"
"49.0000","16.3337","0.1177"
"49.5000","16.5008","0.1180"
"50.0000","16.6673","0.1182"
"50.5000","16.8337","0.1184"
"51.0000","17.0004","0.1185"
"51.5000","17.1676","0.1186"
"52.0000","17.3341","0.1189"
"52.5000","17.5004","0.1190"
"53.0000","17.6671","0.1192"
"53.5000","17.8343","0.1195"
"54.0000","18.0008","0.1196"
"54.5000","18.1671","0.1198"
"55.0000","18.3337","0.1200"
"55.5000","18.5009","0.1203"
"56.0000","18.6673","0.1204"
"56.5000","18.8336","0.1205"
"57.0000","19.0005","0.1207"
"57.5000","19.1675","0.1208"
"58.0000","19.3340","0.1210"
"58.5000","19.5004","0.1212"
"59.0000","19.6668","0.1214"
"59.5000","19.8343","0.1216"
"60.0000","20.0007","0.1219"
"60.5000","20.1671","0.1219"
"61.0000","20.3337","0.1221"
"61.5000","20.5008","0.1223"
"62.0000","20.6675","0.1225"
"62.5000","20.8337","0.1225"
"63.0000","21.0004","0.1227"
"63.5000","21.1676","0.1223"
"64.0000","21.3340","0.1225"
"64.5000","21.5004","0.1227"
"65.0000","21.6671","0.1229"
"65.5000","21.8341","0.1228"
"66.0000","22.0008","0.1229"
"66.5000","22.1669","0.1231"
"67.0000","22.3337","0.1233"
"67.5000","22.5009","0.1236"
"68.0000","22.6675","0.1238"
"68.5000","22.8336","0.1240"
"69.0000","23.0004","0.1240"
"69.5000","23.1675","0.1242"
"70.0000","23.3341","0.1244"
"70.5000","23.5004","0.1246"
"71.0000","23.6669","0.1248"
"71.5000","23.8343","0.1250"
"72.0000","24.0007","0.1252"
"72.5000","24.1669","0.1253"
"73.0000","24.3336","0.1254"
"73.5000","24.5007","0.1255"
"74.0000","24.6673","0.1256"
"74.5000","24.8337","0.1257"
"75.0000","25.0004","0.1258"
"75.5000","25.1676","0.1260"
"76.0000","25.3340","0.1260"
"76.5000","25.5004","0.1261"
"77.0000","25.6671","0.1262"
"77.5000","25.8343","0.1264"
"78.0000","26.0008","0.1265"
"78.5000","26.1669","0.1266"
"79.0000","26.3336","0.1268"
"79.5000","26.5009","0.1270"
"80.0000","26.6675","0.1270"
"80.5000","26.8336","0.1271"
"81.0000","27.0004","0.1272"
"81.5000","27.1675","0.1272"
"82.0000","27.3340","0.1272"
"82.5000","27.5004","0.1272"
"83.0000","27.6671","0.1271"
"83.5000","27.8343","0.1272"
"84.0000","28.0007","0.1272"
"84.5000","28.1671","0.1273"
"85.0000","28.3337","0.1273"
"85.5000","28.5008","0.1273"
"86.0000","28.6675","0.1274"
"86.5000","28.8336","0.1273"
"87.0000","29.0003","0.1273"
"87.5000","29.1676","0.1274"
"88.0000","29.3340","0.1273"
"88.5000","29.5004","0.1271"
"89.0000","29.6671","0.1269"
"89.5000","29.8343","0.1268"
"90.0000","30.0007","0.1266"
"90.5000","30.1671","0.1264"
"91.0000","30.3337","0.1262"
"91.5000","30.5009","0.1260"
"92.0000","30.6675","0.1257"
"92.5000","30.8337","0.1254"
"93.0000","31.0004","0.1250"
"93.5000","31.1675","0.1245"
"94.0000","31.3341","0.1238"
"94.5000","31.5004","0.1229"
"95.0000","31.6669","0.1218"
"95.5000","31.8341","0.1209"
"96.0000","32.0007","0.1203"
"96.5000","32.1671","0.1198"
"97.0000","32.3337","0.1193"
"97.5000","32.5007","0.1188"
"98.0000","32.6673","0.1184"
"98.5000","32.8337","0.1178"
"99.0000","33.0003","0.1170"
"99.5000","33.1676","0.1163"
"100.0000","33.3340","0.1158"
"100.5000","33.5004","0.1155"
"101.0000","33.6671","0.1153"
"101.5000","33.8341","0.1151"
"102.0000","34.0008","0.1149"
"102.5000","34.1669","0.1148"
"103.0000","34.3337","0.1149"
"103.5000","34.5009","0.1150"
"104.0000","34.6673","0.1151"
"104.5000","34.8336","0.1153"
"105.0000","35.0003","0.1153"
"105.5000","35.1676","0.1155"
"106.0000","35.3341","0.1156"
"106.5000","35.5004","0.1158"
"107.0000","35.6671","0.1160"
"107.5000","35.8343","0.1164"
"108.0000","36.0007","0.1166"
"108.5000","36.1671","0.1170"
"109.0000","36.3337","0.1174"
"109.5000","36.5008","0.1177"
"110.0000","36.6675","0.1180"
"110.5000","36.8337","0.1182"
"111.0000","37.0004","0.1183"
"111.5000","37.1676","0.1186"
"112.0000","37.3341","0.1188"
"112.5000","37.5003","0.1191"
"113.0000","37.6671","0.1194"
"113.5000","37.8341","0.1197"
"114.0000","38.0007","0.1200"
"114.5000","38.1672","0.1203"
"115.0000","38.3336","0.1206"
"115.5000","38.5009","0.1207"
"116.0000","38.6673","0.1144"
"116.5000","38.8337","0.1148"
"117.0000","39.0004","0.1153"
"117.5000","39.1673","0.1159"
"118.0000","39.3341","0.1164"
"118.5000","39.5003","0.1169"
"119.0000","39.6669","0.1173"
"119.5000","39.8341","0.1177"
"120.0000","40.0007","0.1181"
"120.5000","40.1671","0.1184"
"121.0000","40.3336","0.1186"
"121.5000","40.5008","0.1189"
"122.0000","40.6673","0.1192"
"122.5000","40.8337","0.1193"
"123.0000","41.0004","0.1194"
"123.5000","41.1675","0.1195"
"124.0000","41.3341","0.1194"
"124.5000","41.5004","0.1194"
"125.0000","41.6671","0.1195"
"125.5000","41.8340","0.1195"
"126.0000","42.0008","0.1196"
"126.5000","42.1671","0.1196"
"127.0000","42.3336","0.1194"
"127.5000","42.5009","0.1192"
"128.0000","42.6675","0.1189"
"128.5000","42.8336","0.1176"
"129.0000","43.0004","0.1169"
"129.5000","43.1676","0.1165"
"130.0000","43.3340","0.1161"
"130.5000","43.5004","0.1153"
"131.0000","43.6671","0.1147"
"131.5000","43.8343","0.1142"
"132.0000","44.0005","0.1138"
"132.5000","44.1671","0.1134"
"133.0000","44.3337","0.1132"
"133.5000","44.5008","0.1130"
"134.0000","44.6675","0.1129"
"134.5000","44.8337","0.1127"
"135.0000","45.0003","0.1121"
"135.5000","45.1676","0.1115"
"136.0000","45.3340","0.1107"
"136.5000","45.5003","0.1099"
"137.0000","45.6671","0.1089"
"137.5000","45.8343","0.1080"
"138.0000","46.0008","0.1074"
"138.5000","46.1671","0.1070"
"139.0000","46.3337","0.1068"
"139.5000","46.5009","0.1061"
"140.0000","46.6673","0.1052"
"140.5000","46.8336","0.1044"
"141.0000","47.0004","0.1034"
"141.5000","47.1675","0.1025"
"142.0000","47.3341","0.1011"
"142.5000","47.5004","0.0896"
"143.0000","47.6671","0.0832"
"143.1140","47.7059","0.0467"

File: TENSILE TEST_4.csv
Time,Displacement,Force
(s),(mm),(kN)
"0.0000","0.0000","0.0013"
"0.1000","0.0124","0.0159"
"0.2000","0.0308","0.0513"
"0.3000","0.0487","0.0837"
"0.4000","0.0657","0.1143"
"0.5000","0.0825","0.1430"
"0.6000","0.0993","0.1706"
"0.7000","0.1163","0.1973"
"0.8000","0.1332","0.2221"
"0.9000","0.1500","0.2359"
"1.0000","0.1668","0.2526"
"1.1000","0.1831","0.2737"
"1.2000","0.1997","0.2934"
"1.3000","0.2161","0.3148"
"1.4000","0.2329","0.3370"
"1.5000","0.2499","0.3590"
"1.6000","0.2667","0.3798"
"1.7000","0.2837","0.4007"
"1.8000","0.3003","0.4209"
"1.9000","0.3167","0.4408"
"2.0000","0.3332","0.4602"
"2.1000","0.3497","0.4794"
"2.2000","0.3664","0.4980"
"2.3000","0.3832","0.5167"
"2.4000","0.4003","0.5356"
"2.5000","0.4171","0.5544"
"2.6000","0.4337","0.5728"
"2.7000","0.4500","0.5905"
"2.8000","0.4665","0.6082"
"2.9000","0.4831","0.6256"
"3.0000","0.4997","0.6426"
"3.1000","0.5167","0.6595"
"3.2000","0.5333","0.6762"
"3.3000","0.5504","0.6927"
"3.4000","0.5669","0.7085"
"3.5000","0.5833","0.7241"
"3.6000","0.5999","0.7393"
"3.7000","0.6163","0.7543"
"3.8000","0.6331","0.7694"
"3.9000","0.6500","0.7841"
"4.0000","0.6671","0.7986"
"4.1000","0.6837","0.8129"
"4.2000","0.7004","0.8267"
"4.3000","0.7167","0.8398"
"4.4000","0.7333","0.8530"
"4.5000","0.7499","0.8657"
"4.6000","0.7663","0.8782"
"4.7000","0.7833","0.8909"
"4.8000","0.8001","0.9032"
"4.9000","0.8172","0.9155"
"5.0000","0.8337","0.9269"
"5.1000","0.8500","0.9379"
"5.2000","0.8665","0.9486"
"5.3000","0.8832","0.9592"
"5.4000","0.8999","0.9695"
"5.5000","0.9167","0.9795"
"5.6000","0.9337","0.9892"
"5.7000","0.9503","0.9985"
"5.8000","0.9672","1.0074"
"5.9000","0.9835","1.0156"
"6.0000","1.0001","1.0235"
"6.1000","1.0165","1.0307"
"6.2000","1.0332","1.0377"
"6.3000","1.0503","1.0443"
"6.4000","1.0668","1.0503"
"6.5000","1.0840","1.0558"
"6.6000","1.1004","1.0602"
"6.7000","1.1168","1.0637"
"6.8000","1.1333","1.0667"
"6.9000","1.1499","1.0689"
"7.0000","1.1665","1.0701"
"7.1000","1.1833","1.0706"
"7.2000","1.2004","1.0703"
"7.3000","1.2172","1.0692"
"7.4000","1.2340","1.0669"
"7.5000","1.2503","1.0633"
"7.6000","1.2669","1.0589"
"7.7000","1.2835","1.0527"
"7.8000","1.2999","1.0454"
"7.9000","1.3169","1.0364"
"8.0000","1.3337","1.0249"
"8.1000","1.3508","1.0099"
"8.2000","1.3675","0.9886"
"8.3000","1.3840","0.9577"
"8.4000","1.4007","0.9016"
"8.5000","1.4180","0.7431"
"8.6000","1.4347","0.6280"
"8.7000","1.4513","0.5103"
"8.8000","1.4680","0.4961"
"8.9000","1.4843","0.4946"
"9.0000","1.5009","0.4940"
"9.1000","1.5172","0.4923"
"9.2000","1.5337","0.4908"
"9.3000","1.5499","0.4900"
"9.4000","1.5667","0.4891"
"9.5000","1.5836","0.4869"
"9.6000","1.6004","0.4849"
"9.7000","1.6175","0.4821"
"9.8000","1.6337","0.4785"
"9.9000","1.6504","0.4735"
"10.0000","1.6668","0.4655"
"10.1000","1.6835","0.4601"
"10.2000","1.7000","0.4556"
"10.3000","1.7168","0.4521"
"10.4000","1.7337","0.4499"
"10.5000","1.7505","0.4477"
"10.6000","1.7675","0.4454"
"10.7000","1.7836","0.4422"
"10.8000","1.8003","0.4392"
"10.9000","1.8165","0.4364"
"11.0000","1.8332","0.4334"
"11.1000","1.8503","0.4247"
"11.2000","1.8671","0.4127"
"11.3000","1.8841","0.3986"
"11.4000","1.9007","0.3875"
"11.5000","1.9172","0.3724"
"11.6000","1.9336","0.3636"
"11.7000","1.9503","0.3569"
"11.8000","1.9667","0.3533"
"11.9000","1.9836","0.3505"
"12.0000","2.0005","0.3474"
"12.1000","2.0173","0.3458"
"12.2000","2.0340","0.3449"
"12.3000","2.0503","0.3439"
"12.4000","2.0671","0.3428"
"12.5000","2.0833","0.3414"
"12.6000","2.0999","0.3398"
"12.7000","2.1168","0.3378"
"12.8000","2.1337","0.3356"
"12.9000","2.1507","0.3330"
"13.0000","2.1671","0.3301"
"13.1000","2.1837","0.3266"
"13.2000","2.2001","0.3209"
"13.3000","2.2167","0.3139"
"13.4000","2.2333","0.3122"
"13.5000","2.2501","0.3110"
"13.6000","2.2671","0.3097"
"13.7000","2.2839","0.3083"
"13.8000","2.3007","0.3066"
"13.9000","2.3168","0.3043"
"14.0000","2.3336","0.3011"
"14.1000","2.3500","0.2985"
"14.2000","2.3667","0.2857"
"14.3000","2.3836","0.2748"
"14.4000","2.4004","0.2747"
"14.5000","2.4173","0.2747"
"14.6000","2.4339","0.2747"
"14.7000","2.4504","0.2748"
"14.8000","2.4668","0.2747"
"14.9000","2.4835","0.2743"
"15.0000","2.4999","0.2742"
"15.1000","2.5168","0.2741"
"15.2000","2.5337","0.2740"
"15.3000","2.5505","0.2740"
"15.4000","2.5673","0.2738"
"15.5000","2.5836","0.2739"
"15.6000","2.6003","0.2738"
"15.7000","2.6165","0.2738"
"15.8000","2.6333","0.2737"
"15.9000","2.6501","0.2737"
"16.0000","2.6669","0.2737"
"16.1000","2.6840","0.2736"
"16.2000","2.7004","0.2734"
"16.3000","2.7171","0.2733"
"16.4000","2.7335","0.2733"
"16.5000","2.7500","0.2733"
"16.6000","2.7667","0.2733"
"16.7000","2.7835","0.2733"
"16.8000","2.8004","0.2733"
"16.9000","2.8171","0.2733"
"17.0000","2.8339","0.2733"
"17.1000","2.8501","0.2733"
"17.2000","2.8668","0.2733"
"17.3000","2.8833","0.2733"
"17.4000","2.9000","0.2733"
"17.5000","2.9169","0.2733"
"17.6000","2.9336","0.2733"
"17.7000","2.9505","0.2733"
"17.8000","2.9672","0.2733"
"17.9000","2.9837","0.2733"
"18.0000","3.0001","0.2733"
"18.1000","3.0168","0.2733"
"18.2000","3.0333","0.2733"
"18.3000","3.0501","0.2733"
"18.4000","3.0671","0.2733"
"18.5000","3.0837","0.2733"
"18.6000","3.1007","0.2733"
"18.7000","3.1169","0.2733"
"18.8000","3.1336","0.2733"
"18.9000","3.1499","0.2733"
"19.0000","3.1667","0.2733"
"19.1000","3.1835","0.2733"
"19.2000","3.2003","0.2733"
"19.3000","3.2173","0.2733"
"19.4000","3.2337","0.2733"
"19.5000","3.2504","0.2733"
"19.6000","3.2668","0.2733"
"19.7000","3.2833","0.2733"
"19.8000","3.3000","0.2733"
"19.9000","3.3168","0.2733"
"20.0000","3.3336","0.2733"
"20.1000","3.3504","0.2733"
"20.2000","3.3673","0.2733"
"20.3000","3.3836","0.2733"
"20.4000","3.4001","0.2733"
"20.5000","3.4165","0.2733"
"20.6000","3.4332","0.2733"
"20.7000","3.4501","0.2733"
"20.8000","3.4669","0.2733"
"20.9000","3.4840","0.2733"
"21.0000","3.5005","0.2733"
"21.1000","3.5171","0.2733"
"21.2000","3.5335","0.2733"
"21.3000","3.5501","0.2733"
"21.4000","3.5665","0.2733"
"21.5000","3.5835","0.2733"
"21.6000","3.6004","0.2733"
"21.7000","3.6172","0.2733"
"21.8000","3.6340","0.2733"
"21.9000","3.6503","0.2733"
"22.0000","3.6669","0.2733"
"22.1000","3.6833","0.2733"
"22.2000","3.7000","0.2733"
"22.3000","3.7168","0.2733"
"22.4000","3.7337","0.2733"
"22.5000","3.7507","0.2733"
"22.6000","3.7671","0.2733"
"22.7000","3.7837","0.2733"
"22.8000","3.8001","0.2733"
"22.9000","3.8165","0.2733"
"23.0000","3.8333","0.2733"
"23.1000","3.8501","0.2733"
"23.2000","3.8671","0.2733"
"23.3000","3.8839","0.2733"
"23.4000","3.9007","0.2733"
"23.5000","3.9168","0.2733"
"23.6000","3.9335","0.2733"
"23.7000","3.9500","0.2733"
"23.8000","3.9667","0.2733"
"23.9000","3.9835","0.2733"
"24.0000","4.0003","0.2733"
"24.1000","4.0172","0.2733"
"24.2000","4.0339","0.2733"
"24.3000","4.0504","0.2733"
"24.4000","4.0668","0.2733"
"24.5000","4.0833","0.2733"
"24.6000","4.0999","0.2733"
"24.7000","4.1167","0.2733"
"24.8000","4.1337","0.2733"
"24.9000","4.1504","0.2733"
"25.0000","4.1672","0.2732"
"25.1000","4.1837","0.2733"
"25.2000","4.2004","0.2733"
"25.3000","4.2167","0.2733"
"25.4000","4.2333","0.2733"
"25.5000","4.2501","0.2733"
"25.6000","4.2669","0.2733"
"25.7000","4.2841","0.2733"
"25.8000","4.3005","0.2733"
"25.9000","4.3169","0.2732"
"26.0000","4.3336","0.2733"
"26.1000","4.3500","0.2733"
"26.2000","4.3667","0.2733"
"26.3000","4.3833","0.2733"
"26.4000","4.4003","0.2733"
"26.5000","4.4172","0.2733"
"26.6000","4.4339","0.2732"
"26.7000","4.4503","0.2733"
"26.8000","4.4668","0.2731"
"26.9000","4.4833","0.2728"
"27.0000","4.4999","0.2768"
"27.1000","4.5168","0.2815"
"27.2000","4.5336","0.2819"
"27.3000","4.5507","0.2799"
"27.4000","4.5672","0.2742"
"27.5000","4.5837","0.2733"
"27.6000","4.6001","0.2733"
"27.7000","4.6167","0.2733"
"27.8000","4.6333","0.2733"
"27.9000","4.6500","0.2733"
"28.0000","4.6671","0.2733"
"28.1000","4.6839","0.2733"
"28.2000","4.7007","0.2733"
"28.3000","4.7169","0.2733"
"28.4000","4.7336","0.2733"
"28.5000","4.7500","0.2733"
"28.6000","4.7667","0.2733"
"28.7000","4.7835","0.2732"
"28.8000","4.8003","0.2733"
"28.9000","4.8173","0.2733"
"29.0000","4.8337","0.2733"
"29.1000","4.8504","0.2733"
"29.2000","4.8668","0.2733"
"29.3000","4.8833","0.2733"
"29.4000","4.8999","0.2733"
"29.4680","4.9113","0.2733"

File: TENSILE TEST_5.csv
Time,Displacement,Force
(s),(mm),(kN)
"0.0000","0.0000","0.0005"
"0.1000","0.0119","0.0078"
"0.2000","0.0304","0.0251"
"0.3000","0.0483","0.0407"
"0.4000","0.0655","0.0558"
"0.5000","0.0827","0.0702"
"0.6000","0.0993","0.0845"
"0.7000","0.1164","0.0985"
"0.8000","0.1333","0.1125"
"0.9000","0.1503","0.1265"
"1.0000","0.1668","0.1400"
"1.1000","0.1835","0.1534"
"1.2000","0.2000","0.1668"
"1.3000","0.2163","0.1798"
"1.4000","0.2333","0.1932"
"1.5000","0.2500","0.2063"
"1.6000","0.2669","0.2194"
"1.7000","0.2839","0.2323"
"1.8000","0.3003","0.2449"
"1.9000","0.3168","0.2573"
"2.0000","0.3333","0.2699"
"2.1000","0.3499","0.2822"
"2.2000","0.3664","0.2946"
"2.3000","0.3835","0.3071"
"2.4000","0.4003","0.3192"
"2.5000","0.4169","0.3313"
"2.6000","0.4337","0.3430"
"2.7000","0.4500","0.3544"
"2.8000","0.4665","0.3660"
"2.9000","0.4831","0.3775"
"3.0000","0.5000","0.3888"
"3.1000","0.5167","0.4004"
"3.2000","0.5337","0.4115"
"3.3000","0.5505","0.4226"
"3.4000","0.5669","0.4335"
"3.5000","0.5836","0.4440"
"3.6000","0.5999","0.4544"
"3.7000","0.6165","0.4648"
"3.8000","0.6332","0.4751"
"3.9000","0.6500","0.4855"
"4.0000","0.6671","0.4960"
"4.1000","0.6836","0.5060"
"4.2000","0.7003","0.5159"
"4.3000","0.7168","0.5256"
"4.4000","0.7333","0.5352"
"4.5000","0.7497","0.5447"
"4.6000","0.7667","0.5542"
"4.7000","0.7835","0.5636"
"4.8000","0.8003","0.5729"
"4.9000","0.8172","0.5820"
"5.0000","0.8337","0.5908"
"5.1000","0.8501","0.5993"
"5.2000","0.8667","0.6077"
"5.3000","0.8832","0.6161"
"5.4000","0.8997","0.6244"
"5.5000","0.9169","0.6328"
"5.6000","0.9336","0.6407"
"5.7000","0.9503","0.6487"
"5.8000","0.9671","0.6564"
"5.9000","0.9833","0.6637"
"6.0000","1.0000","0.6715"
"6.1000","1.0165","0.6789"
"6.2000","1.0333","0.6862"
"6.3000","1.0501","0.6936"
"6.4000","1.0671","0.7008"
"6.5000","1.0839","0.7077"
"6.6000","1.1003","0.7145"
"6.7000","1.1169","0.7209"
"6.8000","1.1332","0.7273"
"6.9000","1.1499","0.7338"
"7.0000","1.1665","0.7400"
"7.1000","1.1835","0.7462"
"7.2000","1.2005","0.7524"
"7.3000","1.2171","0.7581"
"7.4000","1.2337","0.7636"
"7.5000","1.2501","0.7686"
"7.6000","1.2667","0.7736"
"7.7000","1.2832","0.7784"
"7.8000","1.3000","0.7829"
"7.9000","1.3168","0.7871"
"8.0000","1.3336","0.7911"
"8.1000","1.3507","0.7948"
"8.2000","1.3669","0.7976"
"8.3000","1.3835","0.7999"
"8.4000","1.4001","0.8016"
"8.5000","1.4167","0.8024"
"8.6000","1.4332","0.8019"
"8.7000","1.4504","0.7976"
"8.8000","1.4675","0.7719"
"8.8440","1.4769","0.4751"