Folder: Soft-Guided-Glider/Reports and Data/Tensile testing/TENSILE TEST.is_qtest_Exports (part 3)

File: TENSILE TEST_6.csv
Time,Displacement,Force
(s),(mm),(kN)
"0.0000","0.0000","0.0000"
"1.0000","0.3341","0.0005"
"2.0000","0.6672","0.0008"
"3.0000","1.0007","0.0011"
"4.0000","1.3340","0.0014"
"5.0000","1.6675","0.0017"
"6.0000","2.0007","0.0019"
"7.0000","2.3341","0.0022"
"8.0000","2.6673","0.0024"
"9.0000","3.0008","0.0026"
"10.0000","3.3340","0.0028"
"11.0000","3.6675","0.0030"
"12.0000","4.0007","0.0032"
"13.0000","4.3341","0.0034"
"14.0000","4.6672","0.0036"
"15.0000","5.0007","0.0038"
"16.0000","5.3340","0.0039"
"17.0000","5.6675","0.0041"
"18.0000","6.0007","0.0043"
"19.0000","6.3340","0.0044"
"20.0000","6.6673","0.0046"
"21.0000","7.0008","0.0048"
"22.0000","7.3341","0.0049"
"23.0000","7.6675","0.0050"
"24.0000","8.0007","0.0052"
"25.0000","8.3341","0.0054"
"26.0000","8.6673","0.0055"
"27.0000","9.0005","0.0057"
"28.0000","9.3340","0.0058"
"29.0000","9.6673","0.0060"
"30.0000","10.0007","0.0061"
"31.0000","10.3337","0.0063"
"32.0000","10.6672","0.0064"
"33.0000","11.0008","0.0066"
"34.0000","11.3340","0.0068"
"35.0000","11.6673","0.0069"
"36.0000","12.0007","0.0070"
"37.0000","12.3340","0.0072"
"38.0000","12.6672","0.0073"
"39.0000","13.0007","0.0075"
"40.0000","13.3340","0.0077"
"41.0000","13.6675","0.0078"
"42.0000","14.0007","0.0080"
"43.0000","14.3340","0.0082"
"44.0000","14.6675","0.0083"
"45.0000","15.0008","0.0085"
"46.0000","15.3339","0.0086"
"47.0000","15.6673","0.0088"
"48.0000","16.0005","0.0089"
"49.0000","16.3341","0.0091"
"50.0000","16.6673","0.0093"
"51.0000","17.0005","0.0094"
"52.0000","17.3341","0.0096"
"53.0000","17.6675","0.0098"
"54.0000","18.0005","0.0099"
"55.0000","18.3340","0.0101"
"56.0000","18.6672","0.0103"
"57.0000","19.0008","0.0104"
"58.0000","19.3339","0.0106"
"59.0000","19.6673","0.0108"
"60.0000","20.0007","0.0110"
"61.0000","20.3341","0.0112"
"62.0000","20.6673","0.0114"
"63.0000","21.0007","0.0116"
"64.0000","21.3340","0.0118"
"65.0000","21.6673","0.0120"
"66.0000","22.0007","0.0123"
"67.0000","22.3340","0.0125"
"68.0000","22.6673","0.0127"
"69.0000","23.0008","0.0130"
"70.0000","23.3340","0.0132"
"71.0000","23.6673","0.0134"
"72.0000","24.0007","0.0137"
"73.0000","24.3341","0.0139"
"74.0000","24.6673","0.0142"
"75.0000","25.0005","0.0144"
"76.0000","25.3341","0.0147"
"77.0000","25.6673","0.0150"
"78.0000","26.0007","0.0152"
"79.0000","26.3340","0.0155"
"80.0000","26.6672","0.0157"
"81.0000","27.0008","0.0161"
"82.0000","27.3339","0.0163"
"83.0000","27.6673","0.0165"
"84.0000","28.0008","0.0168"
"85.0000","28.3341","0.0171"
"86.0000","28.6673","0.0174"
"87.0000","29.0008","0.0176"
"88.0000","29.3340","0.0179"
"89.0000","29.6676","0.0182"
"90.0000","30.0007","0.0185"
"91.0000","30.3340","0.0188"
"92.0000","30.6672","0.0191"
"93.0000","31.0007","0.0195"
"94.0000","31.3337","0.0198"
"95.0000","31.6673","0.0201"
"96.0000","32.0007","0.0204"
"97.0000","32.3341","0.0207"
"98.0000","32.6673","0.0210"
"99.0000","33.0007","0.0214"
"100.0000","33.3341","0.0217"
"101.0000","33.6675","0.0220"
"102.0000","34.0007","0.0223"
"103.0000","34.3340","0.0226"
"104.0000","34.6672","0.0229"
"105.0000","35.0008","0.0233"
"106.0000","35.3339","0.0237"
"107.0000","35.6673","0.0240"
"108.0000","36.0007","0.0244"
"109.0000","36.3343","0.0248"
"110.0000","36.6672","0.0252"
"111.0000","37.0007","0.0256"
"112.0000","37.3340","0.0260"
"113.0000","37.6675","0.0265"
"114.0000","38.0007","0.0269"
"115.0000","38.3340","0.0273"
"116.0000","38.6672","0.0276"
"117.0000","39.0008","0.0279"
"118.0000","39.3340","0.0282"
"119.0000","39.6673","0.0285"
"120.0000","40.0005","0.0289"
"121.0000","40.3341","0.0292"
"122.0000","40.6673","0.0295"
"123.0000","41.0007","0.0299"
"124.0000","41.3340","0.0302"
"125.0000","41.6675","0.0305"
"126.0000","42.0007","0.0309"
"127.0000","42.3340","0.0313"
"128.0000","42.6673","0.0316"
"129.0000","43.0008","0.0319"
"130.0000","43.3339","0.0323"
"131.0000","43.6672","0.0326"
"132.0000","44.0007","0.0330"
"133.0000","44.3340","0.0335"
"134.0000","44.6672","0.0339"
"135.0000","45.0007","0.0344"
"136.0000","45.3340","0.0349"
"137.0000","45.6675","0.0354"
"138.0000","46.0007","0.0359"
"139.0000","46.3340","0.0364"
"140.0000","46.6673","0.0368"
"141.0000","47.0008","0.0372"
"142.0000","47.3339","0.0375"
"143.0000","47.6673","0.0378"
"144.0000","48.0005","0.0381"
"145.0000","48.3341","0.0385"
"146.0000","48.6672","0.0389"
"147.0000","49.0007","0.0392"
"148.0000","49.3341","0.0396"
"149.0000","49.6675","0.0400"
"150.0000","50.0008","0.0405"
"151.0000","50.3340","0.0410"
"152.0000","50.6673","0.0415"
"153.0000","51.0009","0.0419"
"154.0000","51.3341","0.0425"
"155.0000","51.6675","0.0430"
"156.0000","52.0008","0.0433"
"157.0000","52.3343","0.0437"
"158.0000","52.6673","0.0442"
"159.0000","53.0007","0.0448"
"160.0000","53.3340","0.0453"
"161.0000","53.6675","0.0456"
"162.0000","54.0007","0.0458"
"163.0000","54.3340","0.0462"
"164.0000","54.6675","0.0468"
"165.0000","55.0008","0.0473"
"166.0000","55.3340","0.0478"
"167.0000","55.6675","0.0481"
"168.0000","56.0007","0.0482"
"169.0000","56.3341","0.0487"
"170.0000","56.6673","0.0488"
"171.0000","57.0007","0.0490"
"172.0000","57.3341","0.0493"
"173.0000","57.6675","0.0497"
"174.0000","58.0008","0.0502"
"175.0000","58.3341","0.0505"
"176.0000","58.6675","0.0507"
"177.0000","59.0009","0.0512"
"178.0000","59.3343","0.0519"
"179.0000","59.6675","0.0526"
"180.0000","60.0008","0.0531"
"181.0000","60.3341","0.0535"
"182.0000","60.6672","0.0540"
"183.0000","61.0007","0.0542"
"184.0000","61.3340","0.0546"
"185.0000","61.6675","0.0552"
"186.0000","62.0007","0.0555"
"187.0000","62.3340","0.0559"
"188.0000","62.6673","0.0564"
"189.0000","63.0008","0.0567"
"190.0000","63.3340","0.0565"
"191.0000","63.6673","0.0567"
"192.0000","64.0005","0.0573"
"193.0000","64.3341","0.0577"
"194.0000","64.6673","0.0582"
"195.0000","65.0008","0.0586"
"196.0000","65.3341","0.0588"
"197.0000","65.6674","0.0589"
"198.0000","66.0007","0.0583"
"199.0000","66.3340","0.0576"
"200.0000","66.6674","0.0582"
"201.0000","67.0009","0.0590"
"202.0000","67.3340","0.0597"
"203.0000","67.6673","0.0602"
"204.0000","68.0008","0.0604"
"205.0000","68.3341","0.0608"
"206.0000","68.6673","0.0614"
"207.0000","69.0007","0.0620"
"208.0000","69.3339","0.0626"
"209.0000","69.6674","0.0627"
"210.0000","70.0007","0.0625"
"211.0000","70.3340","0.0628"
"212.0000","70.6674","0.0632"
"213.0000","71.0008","0.0641"
"214.0000","71.3339","0.0650"
"215.0000","71.6673","0.0658"
"216.0000","72.0007","0.0663"
"217.0000","72.3341","0.0662"
"218.0000","72.6673","0.0658"
"219.0000","73.0007","0.0646"
"220.0000","73.3341","0.0640"
"221.0000","73.6674","0.0642"
"222.0000","74.0007","0.0648"
"223.0000","74.3340","0.0654"
"224.0000","74.6673","0.0661"
"225.0000","75.0008","0.0668"
"226.0000","75.3340","0.0677"
"227.0000","75.6673","0.0688"
"228.0000","76.0007","0.0695"
"229.0000","76.3341","0.0697"
"230.0000","76.6672","0.0692"
"231.0000","77.0007","0.0684"
"232.0000","77.3340","0.0678"
"233.0000","77.6674","0.0677"
"234.0000","78.0005","0.0682"
"235.0000","78.3340","0.0686"
"236.0000","78.6673","0.0692"
"237.0000","79.0008","0.0697"
"238.0000","79.3337","0.0705"
"239.0000","79.6671","0.0714"
"240.0000","80.0003","0.0722"
"241.0000","80.3339","0.0725"
"242.0000","80.6669","0.0707"
"243.0000","81.0005","0.0673"
"244.0000","81.3340","0.0682"
"245.0000","81.6674","0.0698"
"246.0000","82.0006","0.0714"
"247.0000","82.3340","0.0726"
"248.0000","82.6673","0.0734"
"249.0000","83.0008","0.0744"
"250.0000","83.3340","0.0752"
"251.0000","83.6672","0.0757"
"252.0000","84.0008","0.0762"
"253.0000","84.3340","0.0767"
"254.0000","84.6672","0.0771"
"255.0000","85.0007","0.0775"
"256.0000","85.3340","0.0779"
"257.0000","85.6674","0.0781"
"258.0000","86.0008","0.0781"
"259.0000","86.3341","0.0785"
"260.0000","86.6673","0.0789"
"261.0000","87.0008","0.0794"
"262.0000","87.3340","0.0799"
"263.0000","87.6674","0.0805"
"264.0000","88.0007","0.0804"
"265.0000","88.3340","0.0801"
"266.0000","88.6673","0.0799"
"267.0000","89.0006","0.0796"
"268.0000","89.3340","0.0795"
"269.0000","89.6675","0.0784"
"270.0000","90.0005","0.0789"
"271.0000","90.3341","0.0794"
"272.0000","90.6672","0.0796"
"273.0000","91.0008","0.0797"
"274.0000","91.3340","0.0797"
"275.0000","91.6673","0.0800"
"276.0000","92.0007","0.0806"
"277.0000","92.3341","0.0809"
"278.0000","92.6673","0.0811"
"279.0000","93.0008","0.0813"
"280.0000","93.3340","0.0820"
"281.0000","93.6673","0.0827"
"282.0000","94.0007","0.0823"
"283.0000","94.3340","0.0819"
"283.8880","94.6300","0.0452"