Folder: Soft-Guided-Glider/Reports and Data/Tensile testing/TENSILE TEST.is_qtest_Exports

Note: README.md
# Soft-Guided-Glider
Roco504 project. Making a compliant actively controlled glider.

File: TENSILE TEST_1.csv
Time,Displacement,Force
(s),(mm),(kN)
"0.0000","0.0000","0.0000"
"4.7000","0.3920","0.0021"
"9.4000","0.7837","0.0042"
"14.1000","1.1755","0.0063"
"18.8000","1.5669","0.0083"
"23.5000","1.9587","0.0103"
"28.2000","2.3500","0.0122"
"32.9000","2.7417","0.0141"
"37.6000","3.1333","0.0159"
"42.3000","3.5251","0.0176"
"47.0000","3.9168","0.0193"
"51.7000","4.3083","0.0210"
"56.4000","4.7000","0.0226"
"61.1000","5.0917","0.0241"
"65.8000","5.4836","0.0257"
"70.5000","5.8753","0.0271"
"75.2000","6.2668","0.0286"
"79.9000","6.6587","0.0299"
"84.6000","7.0505","0.0313"
"89.3000","7.4421","0.0326"
"94.0000","7.8335","0.0339"
"98.7000","8.2251","0.0351"
"103.4000","8.6168","0.0363"
"108.1000","9.0084","0.0375"
"112.8000","9.4000","0.0387"
"117.5000","9.7915","0.0398"
"122.2000","10.1833","0.0409"
"126.9000","10.5751","0.0419"
"131.6000","10.9668","0.0430"
"136.3000","11.3584","0.0440"
"141.0000","11.7500","0.0450"
"145.7000","12.1420","0.0459"
"150.4000","12.5337","0.0468"
"155.1000","12.9253","0.0477"
"159.8000","13.3171","0.0486"
"164.5000","13.7087","0.0495"
"169.2000","14.1004","0.0503"
"173.9000","14.4919","0.0511"
"178.6000","14.8835","0.0519"
"183.3000","15.2749","0.0526"
"188.0000","15.6665","0.0533"
"192.7000","16.0584","0.0541"
"197.4000","16.4500","0.0548"
"202.1000","16.8417","0.0555"
"206.8000","17.2333","0.0562"
"211.5000","17.6251","0.0568"
"216.2000","18.0169","0.0574"
"220.9000","18.4087","0.0580"
"225.6000","18.8004","0.0586"
"230.3000","19.1920","0.0592"
"235.0000","19.5839","0.0597"
"239.7000","19.9755","0.0602"
"244.4000","20.3669","0.0608"
"249.1000","20.7585","0.0613"
"253.8000","21.1501","0.0618"
"258.5000","21.5419","0.0623"
"263.2000","21.9332","0.0627"
"267.9000","22.3249","0.0632"
"272.6000","22.7165","0.0637"
"277.3000","23.1085","0.0642"
"282.0000","23.5003","0.0646"
"286.7000","23.8917","0.0651"
"291.4000","24.2835","0.0655"
"296.1000","24.6752","0.0659"
"300.8000","25.0672","0.0663"
"305.5000","25.4587","0.0667"
"310.2000","25.8504","0.0672"
"314.9000","26.2421","0.0676"
"319.6000","26.6335","0.0679"
"324.3000","27.0253","0.0683"
"329.0000","27.4168","0.0687"
"333.7000","27.8083","0.0691"
"338.4000","28.2000","0.0694"
"343.1000","28.5917","0.0697"
"347.8000","28.9835","0.0701"
"352.5000","29.3749","0.0704"
"357.2000","29.7667","0.0708"
"361.9000","30.1584","0.0711"
"366.6000","30.5503","0.0715"
"371.3000","30.9420","0.0718"
"376.0000","31.3336","0.0721"
"380.7000","31.7253","0.0724"
"385.4000","32.1172","0.0727"
"390.1000","32.5088","0.0730"
"394.8000","32.9003","0.0733"
"399.5000","33.2919","0.0736"
"404.2000","33.6836","0.0738"
"408.9000","34.0751","0.0741"
"413.6000","34.4667","0.0744"
"418.3000","34.8581","0.0747"
"423.0000","35.2499","0.0749"
"427.7000","35.6416","0.0752"
"432.4000","36.0335","0.0754"
"437.1000","36.4251","0.0757"
"441.8000","36.8167","0.0759"
"446.5000","37.2085","0.0762"
"451.2000","37.6005","0.0764"
"455.9000","37.9921","0.0766"
"460.6000","38.3837","0.0769"
"465.3000","38.7753","0.0771"
"470.0000","39.1671","0.0774"
"474.7000","39.5585","0.0776"
"479.4000","39.9501","0.0778"
"484.1000","40.3416","0.0780"
"488.8000","40.7333","0.0783"
"493.5000","41.1252","0.0785"
"498.2000","41.5167","0.0787"
"502.9000","41.9084","0.0789"
"507.6000","42.3000","0.0791"
"512.3000","42.6917","0.0793"
"517.0000","43.0837","0.0795"
"521.7000","43.4753","0.0797"
"526.4000","43.8671","0.0799"
"531.1000","44.2585","0.0801"
"535.8000","44.6507","0.0802"
"540.5000","45.0420","0.0804"
"545.2000","45.4336","0.0806"
"549.9000","45.8253","0.0809"
"554.6000","46.2167","0.0811"
"559.3000","46.6085","0.0813"
"564.0000","47.0000","0.0815"
"568.7000","47.3916","0.0817"
"573.4000","47.7831","0.0819"
"578.1000","48.1752","0.0821"
"582.8000","48.5669","0.0823"
"587.5000","48.9584","0.0824"
"592.2000","49.3501","0.0826"
"596.9000","49.7420","0.0828"
"601.6000","50.1339","0.0829"
"606.3000","50.5253","0.0831"
"611.0000","50.9171","0.0833"
"615.7000","51.3088","0.0835"
"620.4000","51.7003","0.0836"
"625.1000","52.0921","0.0838"
"629.8000","52.4835","0.0840"
"634.5000","52.8749","0.0842"
"639.2000","53.2667","0.0843"
"643.9000","53.6583","0.0846"
"648.6000","54.0501","0.0847"
"653.3000","54.4416","0.0848"
"658.0000","54.8333","0.0850"
"662.7000","55.2251","0.0852"
"667.4000","55.6171","0.0853"
"672.1000","56.0087","0.0855"
"676.8000","56.4003","0.0857"
"681.5000","56.7920","0.0859"
"686.2000","57.1839","0.0860"
"690.9000","57.5755","0.0862"
"695.6000","57.9669","0.0864"
"700.3000","58.3585","0.0865"
"705.0000","58.7501","0.0867"
"709.7000","59.1417","0.0868"
"714.4000","59.5333","0.0869"
"719.1000","59.9248","0.0871"
"723.8000","60.3167","0.0872"
"728.5000","60.7084","0.0874"
"733.2000","61.1003","0.0876"
"737.9000","61.4917","0.0877"
"742.6000","61.8835","0.0878"
"747.3000","62.2753","0.0880"
"752.0000","62.6671","0.0881"
"756.7000","63.0588","0.0883"
"761.4000","63.4504","0.0885"
"766.1000","63.8420","0.0887"
"770.8000","64.2336","0.0888"
"775.5000","64.6253","0.0890"
"780.2000","65.0168","0.0892"
"784.9000","65.4082","0.0893"
"789.6000","65.7999","0.0895"
"794.3000","66.1918","0.0896"
"799.0000","66.5833","0.0898"
"803.7000","66.9751","0.0899"
"808.4000","67.3667","0.0901"
"813.1000","67.7584","0.0903"
"817.8000","68.1503","0.0904"
"822.5000","68.5420","0.0905"
"827.2000","68.9337","0.0907"
"831.9000","69.3253","0.0908"
"836.6000","69.7172","0.0910"
"841.3000","70.1088","0.0911"
"846.0000","70.5004","0.0913"
"850.7000","70.8919","0.0914"
"855.4000","71.2835","0.0916"
"860.1000","71.6753","0.0917"
"864.8000","72.0665","0.0918"
"869.5000","72.4583","0.0919"
"874.2000","72.8499","0.0920"
"878.9000","73.2419","0.0922"
"883.6000","73.6335","0.0923"
"888.3000","74.0249","0.0924"
"893.0000","74.4166","0.0926"
"897.7000","74.8087","0.0927"
"902.4000","75.2005","0.0928"
"907.1000","75.5920","0.0929"
"911.8000","75.9837","0.0930"
"916.5000","76.3755","0.0930"
"921.2000","76.7669","0.0931"
"925.9000","77.1587","0.0932"
"930.6000","77.5500","0.0933"
"935.3000","77.9417","0.0934"
"940.0000","78.3333","0.0936"
"944.7000","78.7251","0.0937"
"949.4000","79.1168","0.0938"
"954.1000","79.5084","0.0940"
"958.8000","79.9000","0.0941"
"963.5000","80.2917","0.0944"
"968.2000","80.6836","0.0945"
"972.9000","81.0753","0.0947"
"977.6000","81.4669","0.0949"
"982.3000","81.8587","0.0950"
"987.0000","82.2505","0.0951"
"991.7000","82.6421","0.0952"
"996.4000","83.0336","0.0954"
"1001.1","83.4250","0.0955"
"1005.8","83.8168","0.0957"
"1010.5","84.2085","0.0958"
"1015.2","84.6000","0.0959"
"1019.9","84.9915","0.0961"
"1024.6","85.3833","0.0962"
"1029.3","85.7751","0.0963"
"1034","86.1668","0.0965"
"1038.7","86.5583","0.0966"
"1043.4","86.9500","0.0967"
"1048.1","87.3419","0.0969"
"1052.8","87.7338","0.0970"
"1057.5","88.1255","0.0971"
"1062.2","88.5171","0.0973"
"1066.9","88.9087","0.0974"
"1071.6","89.3003","0.0976"
"1076.3","89.6919","0.0977"
"1081","90.0833","0.0978"
"1085.7","90.4749","0.0979"
"1090.4","90.8667","0.0981"
"1095.1","91.2585","0.0983"
"1099.8","91.6500","0.0984"
"1104.5","92.0417","0.0986"
"1109.2","92.4333","0.0987"
"1113.9","92.8251","0.0988"
"1118.6","93.2169","0.0990"
"1123.3","93.6087","0.0992"
"1128","94.0003","0.0993"
"1132.7","94.3920","0.0994"
"1137.4","94.7840","0.0996"
"1142.1","95.1753","0.0998"
"1146.8","95.5671","0.1000"
"1151.5","95.9585","0.1001"
"1156.2","96.3501","0.1003"
"1160.9","96.7419","0.1005"
"1165.6","97.1332","0.1007"
"1170.3","97.5251","0.1009"
"1175","97.9165","0.1010"
"1179.7","98.3085","0.1012"
"1184.4","98.7003","0.1013"
"1189.1","99.0917","0.1015"
"1193.8","99.4835","0.1016"
"1198.5","99.8752","0.1018"
"1203.2","100.2672","0.1019"
"1207.9","100.6587","0.1021"
"1212.6","101.0504","0.1022"
"1217.3","101.4421","0.1024"
"1222","101.8336","0.1025"
"1226.7","102.2255","0.1027"
"1231.4","102.6168","0.1028"
"1236.1","103.0083","0.1029"
"1240.8","103.4000","0.1030"
"1245.5","103.7917","0.1033"
"1250.2","104.1834","0.1034"
"1254.9","104.5749","0.1035"
"1259.6","104.9667","0.1037"
"1264.3","105.3584","0.1038"
"1269","105.7503","0.1039"
"1273.7","106.1420","0.1040"
"1278.4","106.5336","0.1042"
"1283.1","106.9253","0.1043"
"1287.8","107.3172","0.1045"
"1292.5","107.7088","0.1046"
"1297.2","108.1003","0.1048"
"1301.9","108.4919","0.1050"
"1306.6","108.8835","0.1052"
"1311.3","109.2750","0.1054"
"1316","109.6668","0.1056"
"1320.7","110.0581","0.1058"
"1325.4","110.4500","0.1059"
"1330.1","110.8417","0.1061"
"1334.8","111.2336","0.1063"
"1339.5","111.6252","0.1064"
"1344.2","112.0168","0.1065"
"1348.9","112.4087","0.1067"
"1353.6","112.8005","0.1068"
"1358.3","113.1921","0.1069"
"1363","113.5837","0.1071"
"1367.7","113.9753","0.1072"
"1372.4","114.3669","0.1073"
"1377.1","114.7587","0.1074"
"1381.8","115.1501","0.1075"
"1386.5","115.5416","0.1076"
"1391.2","115.9332","0.1078"
"1393.99","116.1656","0.1079"

File: TENSILE TEST_2.csv
Time,Displacement,Force
(s),(mm),(kN)
"0.0000","116.1694","0.1058"
"1.4000","116.6367","0.1078"
"2.8000","117.1034","0.1094"
"4.2000","117.5700","0.1109"
"5.6000","118.0368","0.1123"
"7.0000","118.5033","0.1133"
"8.4000","118.9701","0.1143"
"9.8000","119.4365","0.1150"
"11.2000","119.9033","0.1158"
"12.6000","120.3700","0.1163"
"14.0000","120.8368","0.1167"
"15.4000","121.3033","0.1169"
"16.8000","121.7700","0.1167"
"18.2000","122.2365","0.1159"
"19.6000","122.7035","0.1151"
"21.0000","123.1699","0.1149"
"22.4000","123.6367","0.1148"
"23.8000","124.1033","0.1148"
"25.2000","124.5701","0.1145"
"26.6000","125.0368","0.1143"
"28.0000","125.5033","0.1143"
"29.4000","125.9698","0.1145"
"30.8000","126.4366","0.1147"
"32.2000","126.9030","0.1149"
"33.6000","127.3700","0.1152"
"35.0000","127.8368","0.1156"
"36.4000","128.3034","0.1159"
"37.8000","128.7700","0.1162"
"39.2000","129.2366","0.1162"
"40.6000","129.7032","0.1165"
"42.0000","130.1701","0.1167"
"43.4000","130.6365","0.1170"
"44.8000","131.1033","0.1174"
"46.2000","131.5700","0.1178"
"47.6000","132.0368","0.1181"
"49.0000","132.5033","0.1184"
"50.4000","132.9700","0.1187"
"51.8000","133.4366","0.1190"
"53.2000","133.9034","0.1194"
"54.6000","134.3698","0.1196"
"56.0000","134.8368","0.1199"
"57.4000","135.3034","0.1201"
"58.8000","135.7701","0.1204"
"60.2000","136.2366","0.1206"
"61.6000","136.7033","0.1208"
"63.0000","137.1700","0.1209"
"64.4000","137.6368","0.1213"
"65.8000","138.1032","0.1215"
"67.2000","138.5700","0.1216"
"68.6000","139.0366","0.1218"
"70.0000","139.5034","0.1219"
"71.4000","139.9700","0.1220"
"72.8000","140.4366","0.1220"
"74.2000","140.9033","0.1219"
"75.6000","141.3701","0.1219"
"77.0000","141.8366","0.1217"
"78.4000","142.3033","0.1216"
"79.8000","142.7700","0.1216"
"81.2000","143.2369","0.1215"
"82.6000","143.7033","0.1212"
"84.0000","144.1700","0.1209"
"85.4000","144.6365","0.1206"
"86.8000","145.1034","0.1207"
"88.2000","145.5700","0.1209"
"89.6000","146.0366","0.1211"
"91.0000","146.5033","0.1213"
"92.4000","146.9701","0.1216"
"93.8000","147.4366","0.1219"
"95.2000","147.9033","0.1222"
"96.6000","148.3698","0.1225"
"98.0000","148.8369","0.1228"
"99.4000","149.3033","0.1230"
"100.8000","149.7700","0.1233"
"102.2000","150.2365","0.1235"
"103.6000","150.7036","0.1238"
"105.0000","151.1701","0.1240"
"106.4000","151.6366","0.1243"
"107.8000","152.1033","0.1246"
"109.2000","152.5701","0.1250"
"110.6000","153.0365","0.1253"
"112.0000","153.5033","0.1256"
"113.4000","153.9698","0.1258"
"114.8000","154.4368","0.1260"
"116.2000","154.9033","0.1262"
"117.6000","155.3701","0.1263"
"119.0000","155.8366","0.1264"
"120.4000","156.3034","0.1265"
"121.8000","156.7698","0.1266"
"123.2000","157.2366","0.1268"
"124.6000","157.7033","0.1269"
"126.0000","158.1702","0.1270"
"127.4000","158.6366","0.1271"
"128.8000","159.1034","0.1272"
"130.2000","159.5700","0.1273"
"131.6000","160.0369","0.1272"
"133.0000","160.5032","0.1273"
"134.4000","160.9700","0.1274"
"135.8000","161.4366","0.1275"
"137.2000","161.9034","0.1276"
"138.6000","162.3698","0.1277"
"140.0000","162.8366","0.1278"
"141.4000","163.3032","0.1278"
"142.8000","163.7701","0.1278"
"144.2000","164.2365","0.1274"
"145.6000","164.7033","0.1271"
"147.0000","165.1700","0.1270"
"148.4000","165.6369","0.1270"
"149.8000","166.1033","0.1271"
"151.2000","166.5700","0.1273"
"152.6000","167.0366","0.1274"
"154.0000","167.5036","0.1277"
"155.4000","167.9698","0.1279"
"156.8000","168.4366","0.1282"
"158.2000","168.9033","0.1284"
"159.6000","169.3701","0.1288"
"161.0000","169.8368","0.1290"
"162.4000","170.3033","0.1293"
"163.8000","170.7700","0.1296"
"165.2000","171.2368","0.1299"
"166.6000","171.7033","0.1302"
"168.0000","172.1701","0.1306"
"169.4000","172.6365","0.1308"
"170.8000","173.1036","0.1311"
"172.2000","173.5700","0.1313"
"173.6000","174.0366","0.1315"
"175.0000","174.5033","0.1317"
"176.4000","174.9701","0.1319"
"177.8000","175.4365","0.1320"
"179.2000","175.9033","0.1321"
"180.6000","176.3700","0.1322"
"182.0000","176.8368","0.1323"
"183.4000","177.3033","0.1324"
"184.8000","177.7701","0.1326"
"186.2000","178.2365","0.1327"
"187.6000","178.7034","0.1329"
"189.0000","179.1698","0.1329"
"190.4000","179.6368","0.1329"
"191.8000","180.1032","0.1330"
"193.2000","180.5703","0.1330"
"194.6000","181.0368","0.1332"
"196.0000","181.5033","0.1332"
"197.4000","181.9698","0.1333"
"198.8000","182.4368","0.1334"
"200.2000","182.9033","0.1336"
"201.6000","183.3700","0.1338"
"203.0000","183.8366","0.1342"
"204.4000","184.3036","0.1344"
"205.8000","184.7700","0.1346"
"207.2000","185.2366","0.1350"
"208.6000","185.7033","0.1353"
"210.0000","186.1701","0.1355"
"211.4000","186.6366","0.1358"
"212.8000","187.1033","0.1360"
"214.2000","187.5698","0.1362"
"215.6000","188.0369","0.1364"
"217.0000","188.5034","0.1367"
"218.4000","188.9698","0.1369"
"219.8000","189.4365","0.1371"
"221.2000","189.9036","0.1373"
"222.6000","190.3698","0.1374"
"224.0000","190.8366","0.1375"
"225.4000","191.3033","0.1376"
"226.8000","191.7701","0.1376"
"228.2000","192.2366","0.1377"
"229.6000","192.7034","0.1379"
"231.0000","193.1698","0.1381"
"232.4000","193.6368","0.1384"
"233.8000","194.1032","0.1386"
"235.2000","194.5701","0.1389"
"236.6000","195.0365","0.1392"
"238.0000","195.5034","0.1395"
"239.4000","195.9700","0.1398"
"240.8000","196.4366","0.1401"
"242.2000","196.9033","0.1405"
"243.6000","197.3701","0.1408"
"245.0000","197.8365","0.1411"
"246.4000","198.3032","0.1414"
"247.8000","198.7700","0.1416"
"249.2000","199.2368","0.1418"
"250.6000","199.7032","0.1420"
"252.0000","200.1701","0.1422"
"253.4000","200.6366","0.1424"
"254.8000","201.1034","0.1425"
"256.2000","201.5697","0.1427"
"257.6000","202.0366","0.1429"
"259.0000","202.5032","0.1432"
"260.4000","202.9702","0.1434"
"261.8000","203.4368","0.1436"
"263.2000","203.9034","0.1438"
"264.6000","204.3700","0.1441"
"266.0000","204.8368","0.1442"
"267.4000","205.3033","0.1443"
"268.8000","205.7700","0.1444"
"270.2000","206.2366","0.1445"
"271.6000","206.7034","0.1447"
"273.0000","207.1700","0.1449"
"274.4000","207.6366","0.1450"
"275.8000","208.1033","0.1452"
"277.2000","208.5701","0.1454"
"278.6000","209.0366","0.1456"
"280.0000","209.5034","0.1458"
"281.4000","209.9700","0.1461"
"282.8000","210.4368","0.1463"
"284.2000","210.9033","0.1466"
"285.6000","211.3701","0.1468"
"287.0000","211.8368","0.1470"
"288.4000","212.3035","0.1472"
"289.8000","212.7698","0.1474"
"291.2000","213.2368","0.1477"
"292.6000","213.7033","0.1478"
"294.0000","214.1701","0.1480"
"295.4000","214.6366","0.1481"
"296.8000","215.1033","0.1483"
"298.2000","215.5698","0.1484"
"299.6000","216.0369","0.1487"
"301.0000","216.5033","0.1489"
"302.4000","216.9701","0.1492"
"303.8000","217.4365","0.1494"
"305.2000","217.9034","0.1496"
"306.6000","218.3700","0.1498"
"308.0000","218.8366","0.1500"
"309.4000","219.3033","0.1501"
"310.8000","219.7701","0.1502"
"312.2000","220.2365","0.1504"
"313.6000","220.7032","0.1506"
"315.0000","221.1700","0.1509"
"316.4000","221.6368","0.1511"
"317.8000","222.1034","0.1513"
"319.2000","222.5700","0.1514"
"320.6000","223.0366","0.1515"
"322.0000","223.5034","0.1517"
"323.4000","223.9698","0.1519"
"324.8000","224.4366","0.1521"
"326.2000","224.9033","0.1524"
"327.6000","225.3702","0.1527"
"329.0000","225.8366","0.1530"
"330.4000","226.3033","0.1533"
"331.8000","226.7698","0.1536"
"333.2000","227.2368","0.1538"
"334.6000","227.7033","0.1539"
"336.0000","228.1700","0.1542"
"337.4000","228.6368","0.1544"
"338.8000","229.1034","0.1546"
"340.2000","229.5700","0.1548"
"341.6000","230.0368","0.1550"
"343.0000","230.5033","0.1552"
"344.4000","230.9702","0.1555"
"345.8000","231.4366","0.1558"
"347.2000","231.9033","0.1561"
"348.6000","232.3698","0.1563"
"350.0000","232.8368","0.1566"
"351.4000","233.3033","0.1568"
"352.8000","233.7701","0.1570"
"354.2000","234.2365","0.1572"
"355.6000","234.7036","0.1574"
"357.0000","235.1700","0.1576"
"358.4000","235.6366","0.1578"
"359.8000","236.1034","0.1578"
"361.2000","236.5702","0.1578"
"362.6000","237.0368","0.1579"
"364.0000","237.5033","0.1580"
"365.4000","237.9701","0.1580"
"366.8000","238.4368","0.1579"
"368.2000","238.9033","0.1578"
"369.6000","239.3701","0.1580"
"371.0000","239.8366","0.1583"
"372.4000","240.3034","0.1584"
"373.8000","240.7700","0.1585"
"375.2000","241.2366","0.1587"
"376.6000","241.7032","0.1590"
"378.0000","242.1701","0.1593"
"379.4000","242.6365","0.1596"
"380.8000","243.1033","0.1600"
"382.2000","243.5701","0.1603"
"383.6000","244.0368","0.1605"
"385.0000","244.5034","0.1608"
"386.4000","244.9700","0.1610"
"387.8000","245.4365","0.1611"
"389.2000","245.9034","0.1611"
"390.6000","246.3698","0.1612"
"392.0000","246.8366","0.1612"
"393.4000","247.3033","0.1612"
"394.8000","247.7701","0.1612"
"396.2000","248.2366","0.1611"
"397.6000","248.7034","0.1609"
"399.0000","249.1698","0.1460"
"399.6020","249.3710","0.0775"